{
  "resourceType": "DiagnosticReport",
  "contained": [
    {
      "resourceType": "Practitioner",
      "id": "practitioner-001",
      "identifier": [
        {
          "system": "http://hl7.org/fhir/sid/us-npi",
          "value": "1124189600"
        }
      ],
      "active": true,
      "name": [
        {
          "family": "Grant",
          "given": [
            "Jacqueline",
            "H"
          ],
          "prefix": [
            "Dr."
          ],
          "suffix": [
            "MD",
            "MPH",
            "MPA"
          ]
        }
      ]
    },
    {
      "resourceType": "Observation",
      "id": "observation-001",
      "status": "final",
      "code": {
        "coding": [
          {
            "system": "http://www.radlex.org",
            "code": "RID50295",
            "display": "PI-RADS Lesion Assessment Category"
          }
        ]
      },
      "valueCodeableConcept": {
        "coding": [
          {
            "system": "http://www.radlex.org",
            "code": "RID50323",
            "display": "PI-RADS X - Inadequate or absent (Lesion)"
          }
        ],
        "text": "PI-RADS X - Inadequate or absent"
      },
      "component": [
        {
          "code": {
            "coding": [
              {
                "system": "http://loinc.org",
                "code": "RID11517",
                "display": "Index tumor"
              }
            ]
          },
          "valueBoolean": false
        }
      ]
    },
    {
      "resourceType": "Observation",
      "id": "observation-002",
      "status": "final",
      "code": {
        "coding": [
          {
            "system": "http://www.radlex.org",
            "code": "RID50295",
            "display": "PI-RADS Lesion Assessment Category"
          }
        ]
      },
      "valueCodeableConcept": {
        "coding": [
          {
            "system": "http://www.radlex.org",
            "code": "RID50297",
            "display": "PI-RADS 2 - Low (Lesion)"
          }
        ],
        "text": "PI-RADS 2 - Low"
      },
      "hasMember": [
        {
          "reference": "#observation-003"
        }
      ],
      "component": [
        {
          "code": {
            "coding": [
              {
                "system": "http://loinc.org",
                "code": "RID11517",
                "display": "Index tumor"
              }
            ]
          },
          "valueBoolean": true
        }
      ]
    },
    {
      "resourceType": "Observation",
      "id": "observation-003",
      "status": "final",
      "code": {
        "coding": [
          {
            "system": "http://www.radlex.org",
            "code": "RID50301",
            "display": "PI-RADS T2WI PZ Lesion Assessment Category"
          }
        ]
      },
      "valueCodeableConcept": {
        "coding": [
          {
            "system": "http://www.radlex.org",
            "code": "RID50304",
            "display": "PI-RADS 3 - T2WI PZ Intermediate"
          }
        ],
        "text": "PI-RADS 3 - T2WI PZ Intermediate"
      }
    }
  ],
  "identifier": [
    {
      "system": "http://www.siemens-healthineers.com/carbon/reporting",
      "value": "C4431-2022-02-22-232"
    }
  ],
  "status": "final",
  "category": [
    {
      "coding": [
        {
          "system": "http://terminology.hl7.org/CodeSystem/v2-0074",
          "code": "IMG",
          "display": "Diagnostic Imaging"
        }
      ]
    }
  ],
  "code": {
    "coding": [
      {
        "system": "http://loinc.org",
        "code": "30675-3",
        "display": "MR Prostate"
      }
    ]
  },
  "subject": {
    "identifier": {
      "system": "urn:82.42.444.42",
      "value": "shareUniversalId:8493391"
    }
  },
  "effectiveDateTime": "2022-01-24",
  "issued": "2022-01-24T19:32:52+01:00",
  "resultsInterpreter": [
    {
      "reference": "#practitioner-001"
    }
  ],
  "imagingStudy": [
    {
      "identifier": {
        "system": "urn:dicom:uid",
        "value": "urn:oid:2.16.124.113543.6003.1154777499.30246.19789.3503430045"
      }
    }
  ],
  "result": [
    {
      "reference": "#observation-001"
    },
    {
      "reference": "#observation-002"
    },
    {
      "reference": "#observation-003"
    }
  ],
  "presentedForm": [
    {
      "contentType": "application/pdf",
      "language": "en-US",
      "data": ""
    }
  ],
  "conclusionCode": [
    {
      "coding": [
        {
          "system": "http://www.radlex.org",
          "code": "RID50290",
          "display": "PI-RADS 2 - Low"
        }
      ]
    }
  ],
  "id": "123c0450-e31e-4a19-a825-c84f257156d4",
  "meta": {
    "versionId": "39a7bdcd-72db-42c5-aa5f-750adaa16c3d",
    "lastUpdated": "2022-02-22T23:04:05.298+00:00"
  }
}